<Bundle xmlns="http://hl7.org/fhir">
   <id value="asp-liste-1"/>
   <meta>
      <versionId value="2.0.0+20240208"/>
      <lastUpdated value="2025-06-25T17:22:44.606+02:00"/>
   </meta>
   <identifier>
      <value value="1.2.40.0.34.4.16"/>
   </identifier>
   <type value="collection"/>
   <entry>
      <fullUrl value="MedicinalProductDefinition/125128"/>
      <resource>
         <MedicinalProductDefinition xmlns="http://hl7.org/fhir">
            <id value="125128"/>
            <identifier>
               <system value="https://www.ages.at/fhir/referenceNumber"/>
               <value value="125128"/>
            </identifier>
            <domain>
               <coding>
                  <extension url="http://ema.europa.eu/fhir/extension/codeSystemName">
                     <valueString value="Domain"/>
                  </extension>
                  <system value="https://spor.ema.europa.eu/v1/lists/100000000004"/>
                  <code value="100000000012"/>
                  <display value="Human"/>
               </coding>
            </domain>
            <combinedPharmaceuticalDoseForm>
               <coding>
                  <extension url="http://ema.europa.eu/fhir/extension/codeSystemName">
                     <valueString value="Combined Pharmaceutical Dose Form"/>
                  </extension>
                  <system value="https://spor.ema.europa.eu/v1/lists/200000000006"/>
                  <code value="100000073713"/>
                  <display value="Salbe"/>
               </coding>
            </combinedPharmaceuticalDoseForm>
            <legalStatusOfSupply>
               <coding>
                  <extension url="http://ema.europa.eu/fhir/extension/codeSystemName">
                     <valueString value="Legal Status for the Supply"/>
                  </extension>
                  <system value="https://spor.ema.europa.eu/v1/lists/100000072051"/>
                  <code value="200000017698"/>
                  <display value="Arzneimittel zur einmaligen Abgabe auf aerztliche Verschreibung"/>
               </coding>
            </legalStatusOfSupply>
            <classification>
               <coding>
                  <extension url="http://ema.europa.eu/fhir/extension/codeSystemName">
                     <valueString value="Anatomical Therapeutic Chemical classification system - Human"/>
                  </extension>
                  <system value="https://spor.ema.europa.eu/v1/lists/100000093533"/>
                  <code value="100000094928"/>
                  <display value="Prednisolon"/>
               </coding>
               <coding>
                  <extension url="http://ema.europa.eu/fhir/extension/atcGroup">
                     <valueString value="???"/>
                  </extension>
                  <system value="http://www.whocc.no/atc"/>
                  <code value="C05AA04"/>
                  <display value="Prednisolon"/>
               </coding>
            </classification>
            <name>
               <productName value="Scheriproct - Salbe"/>
            </name>
         </MedicinalProductDefinition>
      </resource>
   </entry>
   <entry>
      <fullUrl value="PackagedProductDefinition/0050989"/>
      <resource>
         <PackagedProductDefinition xmlns="http://hl7.org/fhir">
            <id value="0050989"/>
            <identifier>
               <system value="http://ema.europa.eu/fhir/dataCarrierIdentifier"/>
               <value value="0050989"/>
            </identifier>
            <packageFor>
               <reference value="MedicinalProductDefinition/125128"/>
            </packageFor>
            <containedItemQuantity>
               <value value="1.0"/>
               <unit value="Tube"/>
               <system value="https://ema.europa.eu/fhir/vs/unitsOfPresentation"/>
               <code value="200000002156"/>
            </containedItemQuantity>
            <marketingStatus>
               <status>
                  <coding>
                     <extension url="http://ema.europa.eu/fhir/extension/codeSystemName">
                        <valueString value="Marketing Status"/>
                     </extension>
                     <system value="https://spor.ema.europa.eu/v1/lists/100000072052"/>
                     <code value="100000072075"/>
                     <display value="Keine Daten übermittelt"/>
                  </coding>
               </status>
            </marketingStatus>
            <packaging>
               <type>
                  <coding>
                     <extension url="http://ema.europa.eu/fhir/extension/codeSystemName">
                        <valueString value="Packaging"/>
                     </extension>
                     <system value="https://spor.ema.europa.eu/v1/lists/100000073346"/>
                     <code value="100000073561"/>
                     <display value="Tube"/>
                  </coding>
               </type>
            </packaging>
         </PackagedProductDefinition>
      </resource>
   </entry>
   <entry>
      <fullUrl value="RegulatedAuthorization/10260"/>
      <resource>
         <RegulatedAuthorization xmlns="http://hl7.org/fhir">
            <id value="10260"/>
            <identifier>
               <system value="http://ema.europa.eu/fhir/marketingAuthorizationNumber"/>
               <value value="10260"/>
            </identifier>
            <subject>
               <reference value="MedicinalProductDefinition/125128"/>
            </subject>
            <status>
               <coding>
                  <extension url="http://ema.europa.eu/fhir/extension/codeSystemName">
                     <valueString value="Regulatory Entitlement Status"/>
                  </extension>
                  <system value="https://spor.ema.europa.eu/v1/lists/100000072049"/>
                  <code value="100000072099"/>
                  <display value="Valid"/>
               </coding>
            </status>
            <holder>
               <reference value="LOC-100058736"/>
               <display value="KARO Pharma AB"/>
            </holder>
         </RegulatedAuthorization>
      </resource>
   </entry>
   <entry>
      <fullUrl value="AdministrableProductDefinition/1949508"/>
      <resource>
         <AdministrableProductDefinition xmlns="http://hl7.org/fhir">
            <id value="1949508"/>
            <identifier>
               <system value="http://ema.europa.eu/fhir/???"/>
               <value value="1949508"/>
            </identifier>
            <formOf>
               <reference value="MedicinalProductDefinition/125128"/>
            </formOf>
            <routeOfAdministration>
               <code>
                  <coding>
                     <code value="100000073628"/>
                     <display value="rektale Anwendung"/>
                  </coding>
               </code>
            </routeOfAdministration>
         </AdministrableProductDefinition>
      </resource>
   </entry>
   <entry>
      <fullUrl value="Ingredient/335310"/>
      <resource>
         <Ingredient xmlns="http://hl7.org/fhir">
            <id value="335310"/>
            <identifier>
               <system value="http://ema.europa.eu/fhir/???"/>
               <value value="335310"/>
            </identifier>
            <for>
               <reference value="AdministrableProductDefinition/1949508"/>
            </for>
            <role>
               <coding>
                  <extension url="http://ema.europa.eu/fhir/extension/codeSystemName">
                     <valueString value="Ingredient Role"/>
                  </extension>
                  <system value="https://spor.ema.europa.eu/v1/lists/100000072050"/>
                  <code value="100000072072"/>
                  <display value="Wirkstoff"/>
               </coding>
            </role>
            <substance>
               <code>
                  <concept>
                     <coding>
                        <system value="https://spor.ema.europa.eu/v1/lists/substanceDefinition"/>
                        <code value="1708748"/>
                        <display value="PREDNISOLON HEXANOAT"/>
                     </coding>
                  </concept>
               </code>
            </substance>
         </Ingredient>
      </resource>
   </entry>
   <entry>
      <fullUrl value="Ingredient/1354234"/>
      <resource>
         <Ingredient xmlns="http://hl7.org/fhir">
            <id value="1354234"/>
            <identifier>
               <system value="http://ema.europa.eu/fhir/???"/>
               <value value="1354234"/>
            </identifier>
            <for>
               <reference value="AdministrableProductDefinition/1949508"/>
            </for>
            <role>
               <coding>
                  <extension url="http://ema.europa.eu/fhir/extension/codeSystemName">
                     <valueString value="Ingredient Role"/>
                  </extension>
                  <system value="https://spor.ema.europa.eu/v1/lists/100000072050"/>
                  <code value="100000072072"/>
                  <display value="Wirkstoff"/>
               </coding>
            </role>
            <substance>
               <code>
                  <concept>
                     <coding>
                        <system value="https://spor.ema.europa.eu/v1/lists/substanceDefinition"/>
                        <code value="1709205"/>
                        <display value="CINCHOCAIN HYDROCHLORID"/>
                     </coding>
                  </concept>
               </code>
            </substance>
         </Ingredient>
      </resource>
   </entry>
</Bundle>