<Bundle xmlns="http://hl7.org/fhir">
   <id value="asp-liste-2"/>
   <meta>
      <versionId value="2.0.0+20240208"/>
      <lastUpdated value="2025-06-25T17:23:27.537+02:00"/>
   </meta>
   <identifier>
      <value value="1.2.40.0.34.4.16"/>
   </identifier>
   <type value="collection"/>
   <entry>
      <fullUrl value="MedicinalProductDefinition/128393"/>
      <resource>
         <MedicinalProductDefinition xmlns="http://hl7.org/fhir">
            <id value="128393"/>
            <identifier>
               <system value="https://www.ages.at/fhir/referenceNumber"/>
               <value value="128393"/>
            </identifier>
            <domain>
               <coding>
                  <extension url="http://ema.europa.eu/fhir/extension/codeSystemName">
                     <valueString value="Domain"/>
                  </extension>
                  <system value="https://spor.ema.europa.eu/v1/lists/100000000004"/>
                  <code value="100000000012"/>
                  <display value="Human"/>
               </coding>
            </domain>
            <combinedPharmaceuticalDoseForm>
               <coding>
                  <extension url="http://ema.europa.eu/fhir/extension/codeSystemName">
                     <valueString value="Combined Pharmaceutical Dose Form"/>
                  </extension>
                  <system value="https://spor.ema.europa.eu/v1/lists/200000000006"/>
                  <code value="100000073713"/>
                  <display value="Salbe"/>
               </coding>
            </combinedPharmaceuticalDoseForm>
            <legalStatusOfSupply>
               <coding>
                  <extension url="http://ema.europa.eu/fhir/extension/codeSystemName">
                     <valueString value="Legal Status for the Supply"/>
                  </extension>
                  <system value="https://spor.ema.europa.eu/v1/lists/100000072051"/>
                  <code value="200000017695"/>
                  <display value="Arzneimittel zur Abgabe ohne aerztliche Verschreibung"/>
               </coding>
            </legalStatusOfSupply>
            <classification>
               <coding>
                  <extension url="http://ema.europa.eu/fhir/extension/codeSystemName">
                     <valueString value="Anatomical Therapeutic Chemical classification system - Human"/>
                  </extension>
                  <system value="https://spor.ema.europa.eu/v1/lists/100000093533"/>
                  <code value="100000095288"/>
                  <display value="Harnstoff, Kombinationen"/>
               </coding>
               <coding>
                  <extension url="http://ema.europa.eu/fhir/extension/atcGroup">
                     <valueString value="???"/>
                  </extension>
                  <system value="http://www.whocc.no/atc"/>
                  <code value="D02AE51"/>
                  <display value="Harnstoff, Kombinationen"/>
               </coding>
            </classification>
            <name>
               <productName value="Calmurid - Salbe"/>
            </name>
         </MedicinalProductDefinition>
      </resource>
   </entry>
   <entry>
      <fullUrl value="PackagedProductDefinition/0066453"/>
      <resource>
         <PackagedProductDefinition xmlns="http://hl7.org/fhir">
            <id value="0066453"/>
            <identifier>
               <system value="http://ema.europa.eu/fhir/dataCarrierIdentifier"/>
               <value value="0066453"/>
            </identifier>
            <packageFor>
               <reference value="MedicinalProductDefinition/128393"/>
            </packageFor>
            <containedItemQuantity>
               <value value="1.0"/>
               <unit value="nicht definiert"/>
               <system value="https://ema.europa.eu/fhir/vs/unitsOfPresentation"/>
               <code value="900000000001"/>
            </containedItemQuantity>
            <marketingStatus>
               <status>
                  <coding>
                     <extension url="http://ema.europa.eu/fhir/extension/codeSystemName">
                        <valueString value="Marketing Status"/>
                     </extension>
                     <system value="https://spor.ema.europa.eu/v1/lists/100000072052"/>
                     <code value="100000072075"/>
                     <display value="Keine Daten übermittelt"/>
                  </coding>
               </status>
            </marketingStatus>
            <packaging>
               <type>
                  <coding>
                     <extension url="http://ema.europa.eu/fhir/extension/codeSystemName">
                        <valueString value="Packaging"/>
                     </extension>
                     <system value="https://spor.ema.europa.eu/v1/lists/100000073346"/>
                     <code value="100000073561"/>
                     <display value="Tube"/>
                  </coding>
               </type>
            </packaging>
         </PackagedProductDefinition>
      </resource>
   </entry>
   <entry>
      <fullUrl value="RegulatedAuthorization/15010"/>
      <resource>
         <RegulatedAuthorization xmlns="http://hl7.org/fhir">
            <id value="15010"/>
            <identifier>
               <system value="http://ema.europa.eu/fhir/marketingAuthorizationNumber"/>
               <value value="15010"/>
            </identifier>
            <subject>
               <reference value="MedicinalProductDefinition/128393"/>
            </subject>
            <status>
               <coding>
                  <extension url="http://ema.europa.eu/fhir/extension/codeSystemName">
                     <valueString value="Regulatory Entitlement Status"/>
                  </extension>
                  <system value="https://spor.ema.europa.eu/v1/lists/100000072049"/>
                  <code value="200000010409"/>
                  <display value="Surrendered"/>
               </coding>
            </status>
            <holder>
               <reference value="LOC-100001500"/>
               <display value="Galderma International"/>
            </holder>
         </RegulatedAuthorization>
      </resource>
   </entry>
   <entry>
      <fullUrl value="AdministrableProductDefinition/1877218"/>
      <resource>
         <AdministrableProductDefinition xmlns="http://hl7.org/fhir">
            <id value="1877218"/>
            <identifier>
               <system value="http://ema.europa.eu/fhir/???"/>
               <value value="1877218"/>
            </identifier>
            <formOf>
               <reference value="MedicinalProductDefinition/128393"/>
            </formOf>
            <routeOfAdministration>
               <code>
                  <coding>
                     <code value="100000073566"/>
                     <display value="Anwendung auf der Haut"/>
                  </coding>
               </code>
            </routeOfAdministration>
         </AdministrableProductDefinition>
      </resource>
   </entry>
   <entry>
      <fullUrl value="Ingredient/69405"/>
      <resource>
         <Ingredient xmlns="http://hl7.org/fhir">
            <id value="69405"/>
            <identifier>
               <system value="http://ema.europa.eu/fhir/???"/>
               <value value="69405"/>
            </identifier>
            <for>
               <reference value="AdministrableProductDefinition/1877218"/>
            </for>
            <role>
               <coding>
                  <extension url="http://ema.europa.eu/fhir/extension/codeSystemName">
                     <valueString value="Ingredient Role"/>
                  </extension>
                  <system value="https://spor.ema.europa.eu/v1/lists/100000072050"/>
                  <code value="100000072072"/>
                  <display value="Wirkstoff"/>
               </coding>
            </role>
            <substance>
               <code>
                  <concept>
                     <coding>
                        <system value="https://spor.ema.europa.eu/v1/lists/substanceDefinition"/>
                        <code value="1707758"/>
                        <display value="MILCHSÄURE"/>
                     </coding>
                  </concept>
               </code>
               <strength>
                  <presentationRatio>
                     <numerator>
                        <value value="5.0"/>
                        <unit value="g"/>
                        <system value="https://spor.ema.europa.eu/v1/lists/100000110633"/>
                        <code value="100000110654"/>
                     </numerator>
                     <denominator>
                        <value value="1.0"/>
                        <unit value="nicht definiert"/>
                        <system value="https://spor.ema.europa.eu/v1/lists/200000000014"/>
                        <code value="900000000001"/>
                     </denominator>
                  </presentationRatio>
               </strength>
            </substance>
         </Ingredient>
      </resource>
   </entry>
   <entry>
      <fullUrl value="Ingredient/1029231"/>
      <resource>
         <Ingredient xmlns="http://hl7.org/fhir">
            <id value="1029231"/>
            <identifier>
               <system value="http://ema.europa.eu/fhir/???"/>
               <value value="1029231"/>
            </identifier>
            <for>
               <reference value="AdministrableProductDefinition/1877218"/>
            </for>
            <role>
               <coding>
                  <extension url="http://ema.europa.eu/fhir/extension/codeSystemName">
                     <valueString value="Ingredient Role"/>
                  </extension>
                  <system value="https://spor.ema.europa.eu/v1/lists/100000072050"/>
                  <code value="100000072072"/>
                  <display value="Wirkstoff"/>
               </coding>
            </role>
            <substance>
               <code>
                  <concept>
                     <coding>
                        <system value="https://spor.ema.europa.eu/v1/lists/substanceDefinition"/>
                        <code value="1709102"/>
                        <display value="HARNSTOFF"/>
                     </coding>
                  </concept>
               </code>
               <strength>
                  <presentationRatio>
                     <numerator>
                        <value value="10.0"/>
                        <unit value="g"/>
                        <system value="https://spor.ema.europa.eu/v1/lists/100000110633"/>
                        <code value="100000110654"/>
                     </numerator>
                     <denominator>
                        <value value="1.0"/>
                        <unit value="nicht definiert"/>
                        <system value="https://spor.ema.europa.eu/v1/lists/200000000014"/>
                        <code value="900000000001"/>
                     </denominator>
                  </presentationRatio>
               </strength>
            </substance>
         </Ingredient>
      </resource>
   </entry>
</Bundle>