<Bundle xmlns="http://hl7.org/fhir">
   <id value="asp-liste-4"/>
   <meta>
      <versionId value="2.0.0+20240208"/>
      <lastUpdated value="2025-06-25T17:16:31.964+02:00"/>
   </meta>
   <identifier>
      <value value="1.2.40.0.34.4.16"/>
   </identifier>
   <type value="collection"/>
   <entry>
      <fullUrl value="MedicinalProductDefinition/942778"/>
      <resource>
         <MedicinalProductDefinition xmlns="http://hl7.org/fhir">
            <id value="942778"/>
            <identifier>
               <system value="https://www.ages.at/fhir/referenceNumber"/>
               <value value="942778"/>
            </identifier>
            <domain>
               <coding>
                  <extension url="http://ema.europa.eu/fhir/extension/codeSystemName">
                     <valueString value="Domain"/>
                  </extension>
                  <system value="https://spor.ema.europa.eu/v1/lists/100000000004"/>
                  <code value="100000000012"/>
                  <display value="Human"/>
               </coding>
            </domain>
            <combinedPharmaceuticalDoseForm>
               <coding>
                  <extension url="http://ema.europa.eu/fhir/extension/codeSystemName">
                     <valueString value="Combined Pharmaceutical Dose Form"/>
                  </extension>
                  <system value="https://spor.ema.europa.eu/v1/lists/200000000006"/>
                  <code value="100000073864"/>
                  <display value="Injektionssuspension"/>
               </coding>
            </combinedPharmaceuticalDoseForm>
            <legalStatusOfSupply>
               <coding>
                  <extension url="http://ema.europa.eu/fhir/extension/codeSystemName">
                     <valueString value="Legal Status for the Supply"/>
                  </extension>
                  <system value="https://spor.ema.europa.eu/v1/lists/100000072051"/>
                  <code value="200000017698"/>
                  <display value="Arzneimittel zur einmaligen Abgabe auf aerztliche Verschreibung"/>
               </coding>
            </legalStatusOfSupply>
            <classification>
               <coding>
                  <extension url="http://ema.europa.eu/fhir/extension/codeSystemName">
                     <valueString value="Anatomical Therapeutic Chemical classification system - Human"/>
                  </extension>
                  <system value="https://spor.ema.europa.eu/v1/lists/100000093533"/>
                  <code value="100000096563"/>
                  <display value="Influenza, gereinigtes Antigen"/>
               </coding>
               <coding>
                  <extension url="http://ema.europa.eu/fhir/extension/atcGroup">
                     <valueString value="???"/>
                  </extension>
                  <system value="http://www.whocc.no/atc"/>
                  <code value="J07BB02"/>
                  <display value="Influenza, gereinigtes Antigen"/>
               </coding>
            </classification>
            <name>
               <productName value="VAXIGRIP Injektionssupension in einer Fertigspritze"/>
            </name>
         </MedicinalProductDefinition>
      </resource>
   </entry>
   <entry>
      <fullUrl value="PackagedProductDefinition/1076502"/>
      <resource>
         <PackagedProductDefinition xmlns="http://hl7.org/fhir">
            <id value="1076502"/>
            <identifier>
               <system value="http://ema.europa.eu/fhir/dataCarrierIdentifier"/>
               <value value="1076502"/>
            </identifier>
            <packageFor>
               <reference value="MedicinalProductDefinition/942778"/>
            </packageFor>
            <containedItemQuantity>
               <value value="1.0"/>
               <unit value="nicht definiert"/>
               <system value="https://ema.europa.eu/fhir/vs/unitsOfPresentation"/>
               <code value="900000000001"/>
            </containedItemQuantity>
            <marketingStatus>
               <status>
                  <coding>
                     <extension url="http://ema.europa.eu/fhir/extension/codeSystemName">
                        <valueString value="Marketing Status"/>
                     </extension>
                     <system value="https://spor.ema.europa.eu/v1/lists/100000072052"/>
                     <code value="100000072075"/>
                     <display value="Keine Daten übermittelt"/>
                  </coding>
               </status>
            </marketingStatus>
            <packaging>
               <type>
                  <coding>
                     <extension url="http://ema.europa.eu/fhir/extension/codeSystemName">
                        <valueString value="Packaging"/>
                     </extension>
                     <system value="https://spor.ema.europa.eu/v1/lists/100000073346"/>
                     <code value="100000073544"/>
                     <display value="Fertigspritze"/>
                  </coding>
               </type>
            </packaging>
         </PackagedProductDefinition>
      </resource>
   </entry>
   <entry>
      <fullUrl value="RegulatedAuthorization/2-00215"/>
      <resource>
         <RegulatedAuthorization xmlns="http://hl7.org/fhir">
            <id value="2-00215"/>
            <identifier>
               <system value="http://ema.europa.eu/fhir/marketingAuthorizationNumber"/>
               <value value="2-00215"/>
            </identifier>
            <subject>
               <reference value="MedicinalProductDefinition/942778"/>
            </subject>
            <status>
               <coding>
                  <extension url="http://ema.europa.eu/fhir/extension/codeSystemName">
                     <valueString value="Regulatory Entitlement Status"/>
                  </extension>
                  <system value="https://spor.ema.europa.eu/v1/lists/100000072049"/>
                  <code value="200000010409"/>
                  <display value="Surrendered"/>
               </coding>
            </status>
            <holder>
               <reference value="LOC-100010588"/>
               <display value="Sanofi Pasteur Europe"/>
            </holder>
         </RegulatedAuthorization>
      </resource>
   </entry>
   <entry>
      <fullUrl value="AdministrableProductDefinition/2198207"/>
      <resource>
         <AdministrableProductDefinition xmlns="http://hl7.org/fhir">
            <id value="2198207"/>
            <identifier>
               <system value="http://ema.europa.eu/fhir/???"/>
               <value value="2198207"/>
            </identifier>
            <identifier>
               <system value="http://ema.europa.eu/fhir/???"/>
               <value value="2198207"/>
            </identifier>
            <formOf>
               <reference value="MedicinalProductDefinition/942778"/>
            </formOf>
            <routeOfAdministration>
               <code>
                  <coding>
                     <code value="100000073633"/>
                     <display value="subkutane Anwendung"/>
                  </coding>
               </code>
            </routeOfAdministration>
            <routeOfAdministration>
               <code>
                  <coding>
                     <code value="100000073600"/>
                     <display value="intramuskuläre Anwendung"/>
                  </coding>
               </code>
            </routeOfAdministration>
         </AdministrableProductDefinition>
      </resource>
   </entry>
   <entry>
      <fullUrl value="Ingredient/1040389"/>
      <resource>
         <Ingredient xmlns="http://hl7.org/fhir">
            <id value="1040389"/>
            <identifier>
               <system value="http://ema.europa.eu/fhir/???"/>
               <value value="1040389"/>
            </identifier>
            <for>
               <reference value="AdministrableProductDefinition/2198207"/>
            </for>
            <role>
               <coding>
                  <extension url="http://ema.europa.eu/fhir/extension/codeSystemName">
                     <valueString value="Ingredient Role"/>
                  </extension>
                  <system value="https://spor.ema.europa.eu/v1/lists/100000072050"/>
                  <code value="100000072072"/>
                  <display value="Wirkstoff"/>
               </coding>
            </role>
            <substance>
               <code>
                  <concept>
                     <coding>
                        <system value="https://spor.ema.europa.eu/v1/lists/substanceDefinition"/>
                        <code value="1708839"/>
                        <display value="INFLUENZAVIRUS (AUSZUG, PRODUKTE)"/>
                     </coding>
                  </concept>
               </code>
            </substance>
         </Ingredient>
      </resource>
   </entry>
</Bundle>